Jump to content Main menu Main menu move to sidebar hide Navigation Main page Contents Current events Random article About Wikipedia Contact us Contribute Help Learn to edit Community portal Recent changes Upload file Special pages Search Search Appearance Donate Create account Log in Personal tools Donate Create account Log in Pages for logged out editors learn more Contributions Talk CentralNotice Contents move to sidebar hide (Top) 1 History Toggle History subsection 1.1 Origins 1.2 Founding and early days 1.3 Interwar period 1.3.1 Great Kanto Earthquake 1.4 World War II 1.5 Post-war period 1.5.1 University of Tokyo Struggles 1.6 21st century 1.6.1 Women's education 1.6.2 Reforms in the 21st century 2 Student life Toggle Student life subsection 2.1 Admissions 2.2 Junior division 2.2.1 Student housing 2.2.2 Student newspapers and magazines 2.3 Senior division 2.4 International education 3 Organisation Toggle Organisation subsection 3.1 Faculties and graduate schools 3.2 Research institutes 3.3 UTokyo Institutes For Advanced Study (UTIAS) 3.4 University of Tokyo library system 3.5 University of Tokyo Hospital 3.6 Museums 3.7 Finances 4 Notable research 5 Academic rankings and reputation Toggle Academic rankings and reputation subsection 5.1 Subject rankings 6 Sites Toggle Sites subsection 6.1 Hongo campus 6.2 Komaba Campus 6.3 Kashiwa Campus 6.4 Shirokanedai Campus 6.5 Other sites 7 Notable alumni Toggle Notable alumni subsection 7.1 Law and politics 7.2 Sciences, engineering and mathematics 7.3 Business, economics and finance 7.4 Literature, arts and humanities 7.5 Other notable alumni and affiliates 8 See also 9 References 10 Further reading 11 External links Toggle the table of contents University of Tokyo 77 languages Afrikaans العربية Asturianu Azərbaycanca تۆرکجه Basa Bali বাংলা 閩南語 / Bân-lâm-gí Башҡортса Беларуская Беларуская (тарашкевіца) Български Brezhoneg Català Čeština Deutsch Eesti Ελληνικά Español Esperanto Euskara فارسی Français Galego 한국어 Հայերեն हिन्दी Hrvatski Bahasa Indonesia Italiano עברית ქართული Қазақша Latina Latviešu Lietuvių Magyar മലയാളം مصرى Bahasa Melayu 閩東語 / Mìng-dĕ̤ng-ngṳ̄ Монгол မြန်မာဘာသာ Nederlands नेपाली 日本語 Norsk bokmål Oʻzbekcha / ўзбекча ਪੰਜਾਬੀ پنجابی Polski Português Română Runa Simi Русский Scots Simple English Slovenčina Slovenščina Српски / srpski Srpskohrvatski / српскохрватски Suomi Svenska Tagalog தமிழ் ไทย Тоҷикӣ Türkçe Українська اردو ئۇيغۇرچە / Uyghurche Vahcuengh Tiếng Việt Winaray 吴语 粵語 中文 Edit links Article Talk English Read Edit View history Tools Tools move to sidebar hide Actions Read Edit View history General What links here Related changes Upload file Permanent link Page information Cite this page Get shortened URL Download QR code Print/export Download as PDF Printable version In other projects Wikimedia Commons Wikidata item Appearance move to sidebar hide Coordinates : 35°42′48″N 139°45′44″E ﻿ / ﻿ 35.71333°N 139.76222°E ﻿ / 35.71333; 139.76222 From Wikipedia, the free encyclopedia (Redirected from Imperial University of Tokyo ) Public research university in Japan "Todai" redirects here. For the restaurant chain, see Todai (restaurant) .

University of Tokyo 東京大学 Yasuda Auditorium Other name UTokyo Former name Tokyo Imperial University Type Research university Established April 12, 1877 (148 years ago) ( 1877-04-12 ) Academic affiliations IARU AEARU AGS BESETOHA AALAU Budget ¥ 280 billion (US$2.54 billion) (2021) [ 1 ] President Teruo Fujii Academic staff 6,311 (3,937 full-time / 2,374 part-time) (2022) [ 2 ] Total staff 11,487 Students 28,133 (2022) [ 3 ] excluding research students and auditors Undergraduates 13,962 (2022) [ 4 ] Postgraduates 14,171 (2022) [ 5 ] including Professional degree courses Address 7 Chome-3-1 Hongo , Bunkyō , Tokyo , 113-8654 , Japan 35°42′48″N 139°45′44″E ﻿ / ﻿ 35.71333°N 139.76222°E ﻿ / 35.71333; 139.76222 Campus Urban ( Hongo , Komaba ) Suburban ( Kashiwa ) Language Japanese English (for certain courses) Colours Tansei (UTokyo Blue) [ 6 ] Website u-tokyo.ac.jp/en/ The University of Tokyo ( 東京大学 , Tōkyō daigaku , abbreviated as Tōdai ( 東大 ) in Japanese and UTokyo in English [ 7 ] ) is a public research university in Bunkyō , Tokyo, Japan. Founded in 1877 as the nation's first modern university by the merger of several pre-westernisation era institutions, its direct precursors include the Tenmongata , founded in 1684, and the Shōheizaka Institute .

[ 8 ] Although established under its current name, the university was renamed Imperial University ( 帝國大學 , Teikoku daigaku ) in 1886 and was further retitled Tokyo Imperial University ( 東京帝國大學 , Tōkyō teikoku daigaku ) to distinguish it from other Imperial Universities established later.

[ 9 ] It served under this name until the official dissolution of the Empire of Japan in 1947, when it reverted to its original name.

Today, the university consists of 10 faculties , 15 graduate schools , and 11 affiliated research institutes.

[ 10 ] As of 2023, it has a total of 13,974 undergraduate students and 14,258 graduate students.

[ 10 ] The majority of the university's educational and research facilities are concentrated within its three main Tokyo campuses: Hongō , Komaba , and Kashiwa .

[ 11 ] Additionally, UTokyo operates several smaller campuses in the Greater Tokyo Area and over 60 facilities across Japan and globally.

[ 12 ] [ 13 ] UTokyo's total land holdings amount to 326 square kilometres (approximately 80,586 acres or 32,600 hectares), placing it amongst the largest landowners in the country.

[ 14 ] [ 15 ] As of 2025, UTokyo's alumni and faculty include 17 prime ministers of Japan , 20 Nobel Prize laureates , seven astronauts , and a Fields Medalist .

[ 16 ] Additionally, UTokyo alumni have founded some of Japan's largest companies , such as Toyota [ 17 ] and Hitachi .

[ 18 ] UTokyo alumni also held chief executive positions in approximately a quarter of the Nikkei 225 companies in 2014, [ 19 ] a fifth of the total seats in the National Diet in 2023, [ 20 ] [ 21 ] two-thirds of the prefectural governorships in 2023, [ 22 ] and two-thirds of the justiceships at the Supreme Court of Japan in 2024.

[ 23 ] History [ edit ] Origins [ edit ] Asakusa Observatory of the Tenmongata by Hokusai The University of Tokyo traces its roots to three independent institutes founded during the Edo period (1603–1868).

[ 8 ] The oldest, a Shogun-funded Confucian school called Senseiden ( 先聖殿 ) , was founded in 1630 by Razan Hayashi in Ueno .

[ 24 ] This school was renamed the Shoheizaka Institute ( 昌平坂学問所 , Shoheizaka Gakumonjo ) and came to be operated directly by the Tokugawa Shogunate in 1791 as part of the Kansei Reforms . The Tenmongata , established in 1684, was the astronomical research and education arm of the Shogunate.

[ 25 ] It evolved into the Kaisei School ( 開成学校 ) , a school for Western learnings, after the Meiji Restoration . The Kanda Otamagaike Vaccination Centre, established in 1858, [ 26 ] evolved into a school of Western medicine called Tokyo Medical School ( 東京医学校 , Tokyo Igakkō ) . Although plans to establish the country's first university had been in place just after the Meiji Restoration, it was not until around 1875 that it was decided to form the university by merging these schools.

[ 27 ] Founding and early days [ edit ] UTokyo's Akamon (Red Gate), built in 1827, as seen c.

1903 The University of Tokyo was chartered on April 12, 1877, by the Meiji government . Corresponding to the fields covered by the predecessor schools, it started with four faculties: Law , Science , Letters , and Medicine . The Imperial College of Engineering later merged into the university and became the Faculty of Engineering . In 1886 , the university was renamed Imperial University, and it adopted the name Tokyo Imperial University in 1897 after the founding of the next imperial university , what is now Kyoto University .

[ 9 ] By 1888, all faculties had completed their relocation to the former site of the Tokyo house of the Maeda family in Hongo , where they continue to operate today. Among the few extant structures built before this relocation is a gate called Akamon , which has become a widely recognised symbol of the university.

UTokyo students ( Kume , Matsuoka, Akutagawa and Naruse ), c.

1916 During its initial two decades as a modern institution, UTokyo benefited from the contributions of European and American scholars. In 1871, the Meiji Government made a decision about the direction of academic disciplines: engineering was to be learnt from the United Kingdom, mathematics, physics, and international law from France, while politics, economics, and medicine were to be guided by German expertise. Additionally, agriculture and commercial law knowledge was to be sourced from the United States.

[ 28 ] Following this policy, UTokyo and its predecessor institutions sent their graduates to universities in these respective countries and also invited lecturers from them. However, by the 1880s, the Japanese government grew concerned over the spread of French republican and British constitutional monarchist ideals among the faculty and students, and eventually Minister of Education Takato Oki instructed the university to reduce the use of English as a language of instruction, and instead to switch to Japanese.

[ 29 ] This shift coincided with the return of UTokyo alumni who had completed their education in Europe, and these returnees began filling roles that had been predominantly held by foreign scholars.

Interwar period [ edit ] Emperor Hirohito opening a new campus (now known as the Phase II portion of the Komaba Campus ) for the Institute of Aeronautics in 1930 The first half of the Interwar period in Japan was characterised by the spread of liberal ideas, collectively known as Taishō Democracy .

[ 30 ] This movement was ushered in by the concept of Minpon Shugi by Sakuzō Yoshino , as well as Tatsukichi Minobe 's interpretation of sovereignty as inherent to the state rather than the monarchy.

[ 31 ] Both were alumni and professors at the Faculty of Law. Taking advantage of the widespread acceptance of such ideas, prime minister Takaaki Katō , an alumnus of UTokyo, extended suffrage to all males aged 25 and over in 1925, as promised in his manifesto.

[ 32 ] This liberal tendency was also shared among students, exemplified by the labour movement organisation the UTokyo Association of New People (東大新人会, Tōdai Shinjin-kai [ ja ] ) and the UTokyo Settlement (東大セツルメント, Tōdai Settlement [ ja ] ).

[ 33 ] [ 34 ] However, strong reactions against these liberal and socialist ideas also emerged at the university, notably from Shinkichi Uesugi , who mentored and greatly influenced three future prime ministers among his students at UTokyo: Nobusuke Kishi , [ 35 ] Eisaku Satō , [ 35 ] and Takeo Fukuda .

[ 36 ] Great Kanto Earthquake [ edit ] The University of Tokyo suffered immense damage in the Great Earthquake of 1923.

On September 1, 1923, the Great Kanto Earthquake struck the Kanto Plain, inflicting immense damage upon the university. This damage included the complete destruction of almost all main buildings, including the library, as well as the loss of precious scientific and historical samples and data stored in them.

[ 37 ] [ 38 ] This led to a university-wide debate as to whether it should relocate to a larger site, such as Yoyogi , but ultimately, such plans were rejected. Instead, the university purchased additional land in its vicinity, which was still owned by the Maeda family, and expanded there.

Most of the buildings on the Hongo Campus today were built during the reconstruction period in a style known as Uchida Gothic, including Yasuda Auditorium and the General Library .

The reconstruction of the university and its library was brought up in the fourth general assembly of the League of Nations in September 1923, where it was unanimously decided to provide support. The League is said to have been sympathetic especially because the memory of the destruction of KU Leuven in Belgium during the First World War was still fresh.

[ 39 ] The American philanthropist John D. Rockefeller Jr.

personally donated $2 million (approximately $36 million in 2023). The United Kingdom formed a committee led by former Prime Minister Arthur Balfour, 1st Earl of Balfour , and made substantial financial and cultural contributions.

[ 40 ] Rockefeller Jr. and Prince Henry, Duke of Gloucester , a younger son of George V , visited the university in 1929, shortly after the new library was completed.

[ 41 ] Prince Henry's visit marked the first Great Ball (大園遊会, Dai-Enyukai ) in several years, which is now known as the May Festival (五月祭, Gogatsusai ).

[ 42 ] A large portion of the buildings on Hongo Campus today were built during this reconstruction period, and their unique Collegiate Gothic style is known as Uchida Gothic ( 内田ゴシック ) after Yoshikazu Uchida , the architect who designed them.

[ 43 ] Another notable change the earthquake brought about at the university was the expansion of its seismology studies . Long having been the only university in the seismically active country , the university was already known for its seismology research, most notably the contributions made by its alumnus and professor, Fusakichi Omori , in quantitatively evaluating the aftershocks of earthquakes ( Omori's law ) and developing a new type of seismometer capable of recording primary waves .

[ 44 ] The university set up an independent seismology department in November 1923 to delve into the causes and effects of earthquakes and to better prepare for future seismic events.

[ 45 ] In 1925, with a government grant, the Earthquake Research Institute was established within the university, and it has been in continuous operation up to today.

[ 46 ] World War II [ edit ] UTokyo’s Second Faculty of Engineering was established in 1942 to meet the growing demand for engineers during the Second World War. It evolved into the Institute of Industrial Science after the war.

In 1941, the Empire of Japan attacked the American bases at Pearl Harbor and joined World War II as an Axis power alongside Germany . By late 1943, as Japan faced significant defeats in the Pacific theatre , a decision was made to enlist university students studying humanities, sending them to battlefields. During the war, 1,652 students and alumni of UTokyo were killed, including those from varied civilian professions such as doctors, engineers, and diplomats, as well as those killed in action.

[ 47 ] They are commemorated in a memorial erected near the front gate of the Hongo Campus. Most students from faculties of engineering and science remained at university or worked as apprentice engineers, as the expertise of science and technology was deemed indispensable for the war effort.

Leo Esaki , who was a student at the department of physics during the war, shared his memory of his university life in 2007: 'The day after the Tokyo Air Raid of 9 March 1945 , during which more than 100 thousand citizens were killed, professor Tanaka conducted class as usual, without mentioning the war at all'.

[ 48 ] The buildings and facilities of UTokyo were largely immune from air raids, allowing education and research activities to continue.

[ 49 ] The increased demand brought about by the war for engineers, especially in the fields of aeronautics, machinery, electronics, and shipbuilding, led to the establishment of the Second Faculty of Engineering ( 第二工学部 ) at UTokyo in 1942. In the newly built Chiba Campus, around 800 students were enrolled at one time, and military engineering research activities were conducted. It was closed in 1951, and as a successor organisation, the Institute of Industrial Science was established on the site of the former headquarters of the Third Infantry Regiment in Roppongi .

[ 50 ] [ 51 ] During the war, the Imperial Army attempted to use the university's facilities several times, including plans to relocate the university to Sendai and use the Hongo Campus as a fortress for the anticipated Allied landing, Operation Downfall , to protect the Imperial Palace . President Yoshikazu Uchida consistently denied these requests by persuading them of the importance of culture, education and research for the country's long-term development. In September 1945, efforts by Uchida and Shigeru Nambara , Dean of the Faculty of Law, prevented the campus from becoming the Allied Headquarters .

[ 52 ] Instead, the Dai-Ichi Seimei Building was chosen. Nambara succeeded Uchida as president in December 1945.

Post-war period [ edit ] Shigeru Nambara , the first post-war president of the university (1945–1951) During the American occupation era following Japan's defeat in World War II , the university dropped the word 'imperial' from its name and reverted to its original name, University of Tokyo. During this period, under American pressure to remove the role pre-war education was believed to have played in sustaining the class structure, Japan's education system was reformed . President Nambara was appointed as the chairman of the National Educational Reform Committee and implemented these changes.

[ 53 ] As a result, UTokyo under merged with two Higher Schools , which were university preparatory boy's boarding schools and thus became a four-year university instead of three-year as it is today in 1949. One of the higher schools that merged with UTokyo, the First Higher School , became the College of Arts and Sciences .

[ 54 ] This new college, operating on the same campus of Komaba as the higher school, took on the responsibility of educating all undergraduates for the first year and a half of their degrees. At the request of SCAP , the Department of Education was separated from the Faculty of Letters to establish the Faculty of Education.

[ 53 ] It was also during this period that UTokyo first opened its doors to female students. The first nineteen female students were matriculated in April 1946.

[ 55 ] University of Tokyo Struggles [ edit ] Main article: 1968–1969 Japanese university protests Yasuda Auditorium became the main site of fierce clashes between protesters and riot police.

The 1960s saw an intensification of student protests across the world, including the Anti-Vietnam War protests and the May 68 events in France. This zeitgeist of the era was prominently felt in Japan as well, symbolised by the 1960 Anpo protests , in which the death of a UTokyo student, Michiko Kamba , caused public outrage. In 1968, the University of Tokyo Struggles ( 東大紛争 , Tōdai Funsō ) began with medical students demanding improvements in internship conditions, in which medical students were forced to work long hours without being paid before being licensed as a doctor.

The conflict intensified with the indefinite strike decision by the students in January 1968 and escalated further following a clash between the students and faculty. Tensions peaked when radical students, most of whom were members of the Zenkyōtō (the All-Campus Joint Struggle Committees), occupied Yasuda Auditorium , leading the university to eventually call in riot police in June— a move seen as abandoning university autonomy. Efforts to resolve the situation began with the resignation of university executives and the appointment of Ichiro Kato as interim president, who started negotiations. The conflict largely ended in January 1969 after a full-scale police operation to remove the occupying students. This operation involved more than 8,500 riot police officers confronting students who fought back with Molotov cocktails and marble stones taken from the auditorium's interior.

[ 56 ] Prime Minister Eisaku Sato , who was an alumnus of UTokyo himself, visited the site the day after the protesters in the auditorium were forcibly removed, and decided to cancel that year's admission process. This led top highschool students to apply reluctantly to other universities such as Kyoto University and Hitotsubashi University , resulting in many applicants who would have been admitted to those universities under normal circumstances failing to gain admission, since applicants are not allowed to apply to multiple prestigious national universities in Japan.

[ 57 ] The aftermath saw 633 prosecutions, and varied sentences, marking a turbulent chapter in the university's history.

[ 58 ] 21st century [ edit ] Women's education [ edit ] The university first admitted female students in 1946. While the student body has remained predominantly male, various attempts have been made to achieve a more equal gender ratio. In 2023, women made up 23 per cent of first-year undergraduates, the highest percentage in the university's history.

[ 59 ] A quarter of graduate students were female in 2022.

[ 60 ] [ 61 ] Reforms in the 21st century [ edit ] UTokyo's Kamiokande project detected cosmic neutrinos for the first time in human history and later proved neutrinos have mass, resulting in Nobel Prizes in 2003 and 2015.

When the British magazine Times Higher Education first published its world university rankings in partnership with QS in 2004, the University of Tokyo was ranked 12th in the world.

[ 62 ] In the latest 2024 edition of the rankings, it is ranked 29th.

[ 63 ] QS, now with its own rankings , placed the UTokyo at 28th.

[ 64 ] As these numbers suggest, there is a widely shared concern that the university is falling behind its counterparts in the world, and in the future it may struggle to provide a suitable environment for quality education and world-class research.

[ 65 ] UTokyo faces a challenging reality.

Japan's long-lasting economic downturn since the 1990s has led to Japanese companies less willing to invest in research and development than before.

[ 66 ] Additionally, the government's Management Expense Grant ( 運営費交付金 ) has been reduced by one per cent annually since 2004.

[ 67 ] This policy, ostensibly aimed at decreasing the university's reliance on the grant and fostering greater independence, has been blamed as one of the main reasons for the decline in the university's competitiveness.

[ 68 ] To address these challenges, UTokyo has implemented various reforms. In 2004, the University of Tokyo Edge Capital Partners (UTEC) was established. This venture capital firm, affiliated with the university, supports entrepreneurship arising from UTokyo's research and development, aiming to drive innovation across society.

[ 69 ] In 2006, the first phase of development was completed at Kashiwa Campus . Situated in the suburb of Kashiwa , this research-focused campus spans 405,313 square metres (100 acres) and has been at the forefront of advanced scientific research since its inception.

[ 70 ] In 2010, in an attempt to further internationalise and diversify its student body, the university increased its autumn enrollment opportunities for international students.

[ 71 ] UTokyo plans to increase the proportion of female faculty members to above a quarter by newly creating positions for 300 female lecturers by 2027.

[ 72 ] In 2021, the newly elected President Teruo Fujii announced the UTokyo Compass, a guiding framework for the university during his tenure, focusing on diversity, dialogue, and creating a better future.

[ 73 ] It emphasises the university's autonomy and creativity in a new era, advocating multifaceted perspectives on knowledge, people, and places. The Compass encourages dialogue throughout the university and society as a pivotal tool for understanding and questioning, fostering inclusivity, and tackling global challenges. In his announcement, he pledged to make UTokyo 'a university that anyone in the world would like to join'.

[ 73 ] Student life [ edit ] Admissions [ edit ] A successful applicant rejoicing on the results day The University of Tokyo's admission process [ ja ] (東大入試, todai nyushi ) is regarded as the most selective in Japan and is almost synonymous with something that is difficult to achieve.

[ 74 ] To apply, candidates must achieve high scores in the Common Test for University Admissions , a standardised multiple-choice examination. UTokyo applicants are required to take at least seven subjects in this examination. Applicants for natural sciences take two mathematics tests, Japanese (which consists of modern language, classics, and Chinese classics), one foreign language, sciences (two from physics, chemistry, biology, and geology), and one social study subject chosen from geography, Japanese history, or world history. Humanities candidates take two social studies subjects and one science subject instead.

[ 75 ] Based on the scores from the Common Test, approximately three times the number of the final admission slots are invited to take the main examination in late February. Based on the idea that regardless of the field of specialisation, all students should have a solid understanding of mathematics and a good command of languages, mathematics, Japanese and one foreign language are compulsory for all applicants.

[ 76 ] For this examination, science candidates are tested in Advanced Mathematics, English, Japanese, and two science subjects. Humanities candidates take Mathematics, a foreign language, Advanced Japanese, and two social studies subjects (options are geography, Japanese history and world history). UTokyo is also known to be the only university that requires all applicants, including those who wish to study natural sciences, to take a non-multiple-choice Japanese and Chinese classics exam. Some applicants are called upon to take an interview.

[ 77 ] Successful candidates are notified in March of the same year and are matriculated in April. The official acceptance rates for undergraduate degrees are relatively [ compared to?

] high, at around 30 per cent, [ 78 ] which is due to the policy of restricting the number of students who can sit for the exam based on the scores from the Common Test.

[ 79 ] Additionally, Japan's university admission policy does not allow applicants to apply to multiple prestigious national universities, [ 80 ] hence non-prospective students tend to switch to other national universities where they are more likely to secure admission.

Junior division [ edit ] Komaba Campus, where all undergraduates spend a year and a half The matriculation ceremony takes place on April 12, the foundation day of the university.

[ 81 ] All first-year students are matriculated at the College of Arts and Sciences at Komaba , which is a remnant of the time when the Komaba Campus served as the separate boarding school known as the First Higher School until 1949.

[ 82 ] There, they spend the first one and a half years of their degrees. Students are required to study a foreign language they have never learnt for at least a year, with classes formed based on their choices. Popular languages include Chinese, French, German, Korean, Spanish, and Russian. These classes are meant to be places where students can interact with peers from different backgrounds and forge long-lasting friendships, especially because they spend a considerable amount of time together. There is a tradition where the previous year's class ( 上クラ , uekura ) invites the juniors to overnight orientation camps ( オリ合宿 , ori gasshuku ) in early April.

[ 83 ] Intense academic competition is common among students in the junior division, as they face matriculation to the senior division ( 進学選択 , shingaku sentaku , or colloquially 進振り , shinfuri ) in September of their second year, where they are assigned to departments based on their grades for the first one and a half years at Komaba.

[ 84 ] The Department of Information Science, the Faculty of Medicine, and the Department of Sociology are amongst the most selective departments in the shingaku sentaku .

[ 85 ] Student housing [ edit ] Despite its roots as a boarding school, most undergraduates at the university either live with their families at home or in non-university accommodation. Since the closure of the Komaba Dormitory [ ja ] (駒場寮, Komaba-ryo ) in August 2001, there has been no on-campus accommodation for domestic students at the university. There are four university dormitories available for undergraduate students: Mitaka, Toshima, Oiwake and Mejirodai.

[ 86 ] In 2021, approximately five per cent of the undergraduate students lived in one of the university dormitories.

[ 87 ] The university offers more options for international students, with on-campus dormitories available for them at Komaba and Kashiwa.

Student newspapers and magazines [ edit ] The Todai Shimbun (東大新聞) is the oldest university newspaper still in operation, with its first issue in 1920.

[ 88 ] The editing committee of the newspaper has produced multiple central figures in the country's publishing industry.

Recruit , a human resources company with the 13th largest market capitalisation among all publicly traded companies in the country as of March 2024, spun off from the Todai Shimbun 's advertisement branch in 1961.

[ 89 ] There are several other newer campus newspapers and magazines, the most notable of which is the Kokasha ( 恒河沙 ).

[ 90 ] The Kokasha 's start-of-term issues include evaluations of lecturers by students from the previous year, and are widely read by students in the junior division to decide which modules to take at the beginning of terms. Additionally, there are several other relatively new student magazines, such as the biscUiT, [ 91 ] the Todai Shimpo and the Komaba Times .

[ 92 ] Apart from those, student web media such as the UT-base [ 93 ] and the UmeeT are widely read by students.

Senior division [ edit ] One of the refectories in Hongo, situated underground After completing the Shingaku Sentaku , second-year students matriculate into senior division departments to specialise in their chosen fields. With the exception of the senior division of the College of Arts and Sciences and the Department of Mathematics, which are located in Komaba, all other senior departments are situated in Hongo . Consequently, approximately 85 per cent of the students start a new chapter of their university life there.

[ 94 ] The Hongo Campus is located closer to the centre of Tokyo, and has more restaurants, cafes, and large museums in the vicinity compared to Komaba. In addition to these, the campus itself has fifteen refectories and restaurants, nine cafes, nine convenience stores and kiosks, one bookshop, two barbershops, and an underground gym with two 25-metre pools.

[ 95 ] [ 96 ] [ 97 ] Yasuda Auditorium, the venue for graduation ceremonies Graduation ceremonies take place towards the end of March. Approximately one-third of the graduates enter the workforce upon graduation, while the remainder continue their studies at graduate schools within the university or at universities abroad.

[ 98 ] Popular places of employment for UTokyo graduates include the university itself, government ministries, global conglomerates such as Sony and Hitachi , consulting firms such as McKinsey & Company and PwC Consulting , trading companies such as Mitsubishi Corp and Mitsui Corp , and investment banks.

[ 99 ] International education [ edit ] As of November 1, 2023, the University of Tokyo hosts 5,106 international students, who represent 17.7 per cent of the total student body. Of these, 4,874 are postgraduate students and 460 are undergraduates. Exchange students and postdoctoral researchers are not included in these numbers.

[ 100 ] At the undergraduate level, there are mainly three routes for those who have not received their secondary education in Japanese to apply to the University of Tokyo. First, individuals with high Japanese proficiency can apply through the special admissions process for students educated overseas ( 外国学校卒業学生特別選考 ).

[ 101 ] Students admitted via this route study alongside their peers who received secondary education in Japanese. International students who apply via this route sometimes spend a year studying the language at preparatory schools before matriculation. Second, there are undergraduate programmes called PEAK (Programs in English at Komaba), which accept applications based on international qualifications such as the A-level , SAT , and International Baccalaureate . All modules in these programmes are taught in English. However, learning Japanese is mandatory, and those confident in their Japanese ability can take modules taught in Japanese in other departments.

[ 102 ] Third, the university offers exchange programmes with universities worldwide.

[ 103 ] There are University-wide Student Exchange Programmes (USTEP) with universities such as Tsinghua University , Princeton University , National University of Singapore and Yale University .

[ 104 ] The College of Arts and Sciences has its own exchange programmes called KOMSTEP with universities such as University of Paris .

[ 105 ] The Faculty of Engineering also has its own exchange programmes, whose partner institutions include Petroleum Institute, Abu Dhabi , University of Cambridge , and Massachusetts Institute of Technology .

[ 106 ] Starting in Autumn 2027, UTokyo plans to offer a five-year programme called the College of Design. The programme aims to 'redefine design as a broad concept (...) based on interdisciplinary knowledge that integrates the humanities, social sciences, natural sciences, engineering and other fields'.

[ 107 ] Approximately 100 students will be matriculated annually, with half of them coming from overseas.

[ 108 ] A wider variety of postgraduate programmes are offered in English, [ 109 ] making the international student ratio significantly higher for postgraduate studies (31.32 per cent in November 2023).

[ 100 ] Organisation [ edit ] Teruo Fujii , the 31st president of the University of Tokyo The University of Tokyo operates under a centralised administrative structure, with key policies set by the administrative council, which is chaired by the president.

[ 110 ] However, due to the university's historical development as a merger of various institutions, each of the constituent colleges, faculties, and research institutes maintains its own administrative board. Today, the University of Tokyo is organised into 10 faculties [ 111 ] and 15 graduate schools.

[ 112 ] The leader of the University of Tokyo is known as the president ( 総長 , socho ) and it is a substantive leadership role. The president is elected by the university's board council from among the faculty members for a term of six years. The current president is Teruo Fujii , a scholar in applied microfluidics , who assumed the role in April 2021 and is expected to serve until March 2027.

[ 113 ] Faculties and graduate schools [ edit ] The University of Tokyo's academic structure consists of 10 faculties and their affiliated graduate schools. This organisational structure was introduced as a result of reforms in the 1990s.

[ 114 ] Faculty Founded Locations Affiliated graduate schools Colour Law 1872 Hongo Graduate Schools for Law and Politics Green Medicine 1868 Hongo, Shirokane Graduate School of Medicine Red Engineering 1871 Hongo, Kashiwa, KomabaII, Asano Graduate School of Engineering , Graduate School of Frontier Sciences, Graduate School of Information Science and Technology White Letters 1868 Hongo Graduate School of Humanities and Sociology None Science 1877 Hongo, Komaba (maths) Graduate School of Science , Graduate School of Mathematical Sciences Benikaba Agriculture 1886 Hongo (Yayoi) Graduate School of Agricultural and Life Sciences Indigo Economics 1919 Hongo Graduate School of Economics Blue Arts and Sciences 1886 Komaba Graduate School of Arts and Sciences Black and Yellow Education 1949 Hongo, Nakano Graduate School of Education Orange Pharmaceutical Sciences 1958 Hongo Graduate School of Pharmaceutical Sciences Enji In addition to the graduate schools affiliated with specific faculties, the University of Tokyo also includes two independent graduate institutions: the Graduate School of Interdisciplinary Information Studies and the Graduate School of Public Policy (GraSPP).

In 2025, UTokyo announced a plan to launch a five-year program called the College of Design , starting in the autumn of 2027. This would be the first faculty to be established in nearly 70 years, since the founding of the Faculty of Pharmaceutical Sciences in 1958.

[ 115 ] While Japanese local media refer to it as a "faculty ( 学部 )," UTokyo describes it as an integrated five-year program combining both bachelor's and master's degrees program, according to the currently announced plans.

Research institutes [ edit ] Apart from the faculties and graduate schools, the University of Tokyo hosts eleven affiliated research institutes ( 附置研究所 ) . Simultaneously, they function as educational institutions for the graduate schools.

[ 116 ] [ 117 ] [ 118 ] Institute Atmosphere and Ocean Research Institute ( 大気海洋研究所 ) Advances basic research on oceans and atmosphere, focusing on climate change and evolution of life, and offers graduate education.

Earthquake Research Institute Conducts basic research on earthquakes and volcanic phenomena, aiming at disaster prevention and mitigation.

Historiographical Institute Focuses on collecting, researching, and editing historical documents, especially in the field of pre-modern Japanese history.

Institute for Advanced Studies on Asia (formerly known as Institute of Oriental Culture, 東洋文化研究所 ) Specialises in comprehensive studies of Asia, including humanities and social sciences, and collaborates internationally.

Institute for Cosmic Ray Research Observes cosmic rays and particles for research in astrophysics and particle physics.

Institute for Solid State Physics ( 物性研究所 ) Researches the properties of materials at the microscopic level, using advanced technologies such as quantum beams and supercomputers.

Institute of Industrial Science ( 生産技術研究所 ) Engages in applied research integrating various fields of engineering, covering almost all aspects of engineering.

Institute of Medical Science Focuses on diseases such as cancer and infectious diseases, aiming at innovative treatment methods including genomics and AI in healthcare.

Institute for Quantitative Biosciences ( 定量生命科学研究所 ) Conducts advanced research in describing all life dynamics by physical quantities, incorporating fields such as mathematics, physics, and chemistry.

Institute of Social Science ( 社会科学研究所 ) Aims at producing 'comprehensive knowledge' in social sciences, conducting joint research and providing an international platform for empirical social science research.

Research Center for Advanced Science and Technology ( 先端科学技術研究センター ) Engages in interdisciplinary research in various fields such as materials, environment, information, and social sciences, aiming at pioneering new scientific and technological areas.

UTokyo Institutes For Advanced Study (UTIAS) [ edit ] UTokyo Institutes For Advanced Study (UTIAS) started in January 2011. Their primary objective is to improve academic excellence and foster an internationalised research environment. There are four UTIAS institutes as of November 2023: [ 119 ] Institute Tokyo College Established in February 2019 to collaboratively explore the future of humanity and Earth. Engages in interdisciplinary research on themes such as the digital revolution, Earth's limits, Japan's future, future humanities, and the future of life. It also acts as a host institution for visiting professors, including Jack Ma , the founder of Alibaba Group .

[ 120 ] [ 121 ] Kavli Institute for the Physics and Mathematics of the Universe Focuses on fundamental questions about the universe, including dark energy, dark matter, and unified theories, with interdisciplinary approaches involving mathematics, physics, and astronomy.

International Research Center for Neurointelligence (IRCN) Established in October 2017 to create a new field of 'Neurointelligence'. Integrating life sciences, medicine, linguistics, mathematics, and information science, it chiefly aims to further understand human intelligence, and utilise the outcomes to overcome mental illnesses, and develop new types of AI based on brain functioning.

The University of TOkyo Pandemic preparedness, Infection and Advanced research center (UTOPIA) Established in October 2022, its aim is to equip the society with resilience against future pandemics through fundamental research in infectious diseases, immunity. It takes multi-disciplinary approaches involving immunology, structural biology, AI, and social sciences, and aims to develop systems for quickly providing effective and safe vaccines and treatments in emergencies.

University of Tokyo library system [ edit ] Main article: University of Tokyo Library One of the reading rooms, General Library (Hongo) The University of Tokyo Library System consists of three comprehensive libraries located on the main campuses—Hongo, Komaba, and Kashiwa—along with 27 other field-specific libraries operated by various faculties and research institutes.

[ 122 ] As of 2024, the University of Tokyo library has a collection of over 10 million books and numerous materials of historical importance.

[ 123 ] This collection ranks it as the second-largest library in Japan, surpassed only by the National Diet Library , which holds a collection of approximately 46.8 million books.

[ 124 ] It also subscribes to about 170,000 journals.

The headquarters of the library is situated in the General Library at Hongo, which underwent thorough renovation in the late 2010s. It now features a 46-metre-deep automated underground storage capable of housing approximately 3 million books.

[ 125 ] University of Tokyo Hospital [ edit ] Main article: University of Tokyo Hospital Outpatient Clinic Building of the hospital The University of Tokyo Hospital is an academic health science centre operated by the Faculty of Medicine . The hospital finds its roots in the Kanda Otamagaike Vaccination Centre, established in 1858. It has 37 clinical examination rooms for a wide range of specialisations including Cardiovascular Medicine and Orthopaedic Surgery, among others. With a capacity of 1,210 beds, the hospital facilitated medical services for 389,830 inpatients and 794,454 outpatients in the fiscal year 2010.

[ 126 ] Newsweek 's World's Best Hospitals 2023 ranks it 17th in the world, 2nd in Asia, and 1st in Japan.

[ 127 ] It serves as the primary hospital for the Imperial Family of Japan , with both the current emperor and the emperor emeritus having undergone major operations there.

[ 128 ] [ 129 ] Museums [ edit ] The University of Tokyo operates eight museums, three of which fall under the purview of the University Museum (UMUT) .

An Egyptian Horus sculpture UMUT Exhibition in UMUT The University Museum, c. 1900 Nikko Botanical Garden Museum Location Operator University Museum The largest university museum in Japan, it has amassed over three million academic materials since 1877. It has hosted numerous planned exhibitions in addition to its permanent exhibition.

Hongo UMUT INTERMEDIATHEQUE A joint venture with Japan Post , it's housed in the JP Tower in Marunouchi and focuses on interdisciplinary experimentation, showcasing scientific and cultural heritage.

JP Tower, Marunouchi, Chiyoda UMUT/Japan Post University Museum, Koishikawa Annex Located in one of the University of Tokyo's oldest buildings, it displays architectural models and photographs documenting the construction of various famous structures from around the world.

Koishikawa botanical garden UMUT Komaba Museum Combining an art and a natural science museum, it features collaborative exhibitions that transcend the boundaries of liberal arts and science.

Komaba College of Arts and Sciences Museum of Health and Medicine Provides information about health and medicine.

Hongo Faculty of Medicine Medical Science Museum Aims to preserve and display historical medical materials, offering a tranquil environment for visitors to reflect on the past, present, and future of medical science.

Shirokanedai Institute of Medical Sciences Farm Museum Located in a renovated dairy barn in the Tanashi University Farm, it showcases farming implements and other agricultural artefacts.

Tanashi farm Faculty of Agriculture Agricultural Museum Displays items related to agriculture, including artefacts such as Hachiko 's internal organs.

Yayoi Faculty of Agriculture Apart from the aforementioned museums, the University of Tokyo operates several other public facilities, the most notable of which are two botanical gardens managed by the Faculty of Science : Koishikawa and Nikko.

Koishikawa Botanical Garden Established in 1684, this botanical garden has been operated by the University of Tokyo since its foundation as a modern university in 1877.

[ 130 ] It was in this garden that in 1894 Hirase Sakugoro the discovered spermatozoids of the ginkgo , proving that gymnosperms produce sperm cells. The garden is designated as a National Monument and is open to the public for an admission fee of 500 yen (free for UTokyo students and faculty).

[ 131 ] Nikko Botanical Garden Opened in 1902 as an annex to the Koishikawa Garden, this facility is located in the highland resort town of Nikko and primarily focuses on alpine plants. It has become a popular tourist destination in Nikko and is accessible to the public with an admission fee of 500 yen.

[ 132 ] Finances [ edit ] UTokyo's Income and Expenses, 2021-2022 (avg. exchange rate: 1 US$ = 109.8 yen) Income (billion yen) Expenses (billion yen) Government fundings 93.1 Personnel 106.1 Self-earned income 81.2 Equipment 134.7 External fundings (research grants, endowments) 91.7 Depreciation 27.9 In 2021-2022, the university had an income of 264.1 billion yen. Of this, 93.4 billion yen (35.1%) was funded by the government, primarily through the Expense Management Grant (運営費交付金). Despite being a national university, this grant from the government has been consistently reduced, dropping from 95.5 billion yen in 2005 to 79.9 billion yen in 2022. A total of 81.2 billion yen (30.5%) was self-earned, through sources such as the university hospitals (54.7 billion yen) and academic fees (16.6 billion yen). The remainder, 91.7 billion yen (34.4%), came from external funding, such as research grants and endowments. Although research grants are primarily earned by research groups and not by the university, the university can typically claim up to 30% of them for university operations, which is included in this number.

[ 133 ] The total assets of the university are valued at 1.47 trillion yen as of March 31, 2024. Land holdings make up the largest percentage of this figure, valued at 878 billion yen.

[ 134 ] UTokyo's endowment fund is relatively small, at 44 billion yen as of March 2023. This is because national universities in Japan, including UTokyo, were not allowed to invest in high-risk assets until 2018, so endowments were spent rather than invested until that point.

[ 135 ] The UTokyo Foundation is the primary fundraising arm of the university, and it accepts both endowments for the university as a whole and purpose-specific donations.

[ 136 ] UTokyo's tuition fees have been fixed at 535,000 yen annually for undergraduates and master's students since 2005, regardless of their status (whether domestic or international).

[ 137 ] This makes up approximately 5% of the university's income. However, the decline in government funding and the university's international standing have brought about discussions on whether to raise these fees.

[ 138 ] Notable research [ edit ] Since its foundation in 1877, the University of Tokyo has been involved in a wide range of research across various disciplines. Below is a selection of recognised research efforts conducted by individuals and teams affiliated with the university during their work.

Ito Integral (blue) of a Brownian motion (red) In 1904, Hantaro Nagaoka , an alumnus and professor in the Department of Physics, devised the Saturnian model of the atom. Contrasting with J. J. Thomson's then-popular plum pudding model , Nagaoka's model proposed an atomic structure with a heavy nucleus at the centre and electrons revolving around it.

[ 139 ] Although this model assumed a far larger nucleus than in reality, it inspired Ernest Rutherford 's Rutherford model .

[ 140 ] Teiji Takagi , an alumnus and professor of the Department of Mathematics, proved the Takagi existence theorem in the 1910s. Alongside significant contributions to algebraic number theory , he also introduced the Blancmange curve , a well-known example of a self-affine curve.

In 1951, Kiyoshi Ito , as a doctoral student in the Department of Mathematics, pioneered the theory of stochastic integration and stochastic differential equations , now known as Itô calculus . This theory is best known for its application in mathematical finance , namely in the Black–Scholes equation for option values .

Japan's first satellite, Ohsumi On February 11, 1970, a team at the Institute of Space and Aeronautical Science of the University of Tokyo succeeded in launching the country's first satellite, Ohsumi , making the country the fourth nation in the world to have the capability to send objects into orbit with their own launch vehicles .

[ 141 ] The satellite was carried on a Lambda 4S rocket , a joint project by the Institute of Industrial Science at the university and Nissan . The second satellite of the country, Tansei , was named after the school colour of the university (light blue).

[ 142 ] The institute left the purview of the university as part of a government-led project in the 1980s and eventually formed JAXA , but it still operates in close liaison with the university.

[ 143 ] Yoshinori Ohsumi made a breakthrough in the study of autophagy , a process for cellular waste management and recycling, when he was a professor at the College of Arts and Sciences at the university.

[ 144 ] Using yeast for his experiments, Ohsumi identified key genes involved in autophagy, shedding light on how cells respond to stress such as malnutrition and infections , and linking the process to various diseases including cancer . He received the Nobel Prize in Physiology or Medicine in 2016 'for his discoveries of mechanisms for autophagy'.

[ 145 ] Proton-proton reaction On February 23, 1987, the Kamioka Nucleon Decay Experiment observatory , part of the Department of Physics, detected cosmic neutrinos for the first time in human history. This discovery significantly contributed to proving that the sun's energy is generated from hydrogen atoms combining into helium(proton-proton reaction chain).

Masatoshi Koshiba , leader of this research group, was awarded the Nobel Prize in Physics in 2002.

[ 146 ] In 1998, an expanded version of this neutrino observatory ( Super-Kamiokande ) detected neutrino oscillation , demonstrating that the 'lepton flavour' of neutrinos changes. This discovery, proving that neutrinos have mass, led to Takaaki Kajita receiving the Nobel Prize in Physics in 2015.

[ 147 ] As the successor to Super-Kamiokande, Hyper-Kamiokande is currently under construction, with the operation's start planned for 2027.

[ 148 ] Academic rankings and reputation [ edit ] University rankings Global THE [ 149 ] General 28 THE Reputation [ 150 ] General 10 QS [ 151 ] General 36= ARWU [ 152 ] Research 27 Nature Index Academic [ 153 ] Research 16 Regional THE Asia (Asia version) [ 154 ] General 5 QS Asia (Asia version) [ 155 ] General 21 UTokyo's performance in various world university rankings (2003–2024) Due to its age and its academic and social status, the University of Tokyo is considered to be the most prestigious university in Japan, and reflecting this, its admission process for undergraduate degrees is regarded as the most selective in the country.

[ 156 ] [ 157 ] [ 158 ] The Times Higher Education World University Rankings ranked UTokyo 28th in the world in 2024 (1st in Japan).

[ 159 ] Its subject rankings ranked UTokyo 1st in the country for all subjects it covers.

[ 160 ] The Times Higher Education World Reputation Rankings 2023 ranked UTokyo 10th in the world (1st in Japan, 2nd in Asia). In 2017, its Alma Mater Index , which measures universities around the world by the number of CEOs of Fortune Global 500 companies among their alumni, ranked UTokyo 16th in the world.

[ 161 ] The QS World University Rankings ranked UTokyo 32nd in the world in 2024 (1st in Japan).

[ 162 ] Its subject rankings ranked UTokyo 1st in Japan for all academic disciplines the university covers except for Classics and Ancient History, for which KyotoU was recognised as the best. The university was ranked 11th in the world for Natural Sciences, 18th for Engineering and Technology, 35th for Social Sciences & Management, and 32nd for Arts and Humanities.

[ 160 ] UTokyo's performance in The World University rankings compared to other universities (2004-2009 and 2011–2024) UTokyo has consistently been the largest recipient of the KAKENHI Grants-in-Aid for Scientific Research (Japan's largest national research grant) in the country. In FY2022, it alone received approximately 10 percent of the total grants awarded to 1,370 institutions across Japan.

[ 163 ] [ 164 ] In 2023, Newsweek recognised the University of Tokyo Hospital as the 17th best hospital in the world (2nd in Asia after Singapore General Hospital , 1st in Japan).

[ 165 ] Subject rankings [ edit ] QS World University Rankings by Subject 2024 [ 166 ] Subject Global National Arts & Humanities =32 1 Linguistics =24 1 Theology, Divinity and Religious Studies 46 1 Archaeology 24 1 Architecture and Built Environment 15 1 Art and Design 49 1 Classics and Ancient History 42 2 English Language and Literature 37 1 History 12 1 Art History 6 1 Modern Languages 7 1 Philosophy 51–100 1–2 Engineering and Technology 18 1 Engineering – Chemical 15 1 Engineering – Civil and Structural 21 1 Computer Science and Information Systems =38 1 Engineering – Electrical and Electronic 33 1 Engineering – Petroleum 10 1 Engineering – Mechanical =21 1 Life Sciences & Medicine 36 1 Agriculture and Forestry 36 1 Anatomy and Physiology 28 1 Biological Sciences 31 1 Medicine 42 1 Nursing 101–150 1 Pharmacy and Pharmacology 41 1 Psychology =77 1 Veterinary Science 48 1 Natural Sciences =11 1 Chemistry 15 1 Earth and Marine Sciences 11 1 Environmental Sciences =31 1 Geography 18 1 Geology =12 1 Geophysics =13 1 Materials Sciences 20 1 Mathematics 29 1 Physics and Astronomy 9 1 Social Sciences & Management 35 1 Accounting and Finance 39 1 Anthropology 33 1 Business and Management Studies =87 1 Communication and Media Studies 51–100 1 Development Studies =26 1 Economics and Econometrics 33 1 Education and Training =57 1 Law and Legal Studies 22 1 Politics =39 1 Social Policy and Administration =29 1 Sociology =24 1 Sports–Related Subjects 49 1 Statistics and Operational Research 34 1 THE World University Rankings by Subject 2024 [ 167 ] Subject Global National Arts & humanities 60 1 Business & economics =28 1 Clinical & health 30 1 Computer science 33 1 Education 25 1 Engineering 29 1 Life sciences 30 1 Physical sciences 24 1 Psychology 61 1 Social sciences =40 1 ARWU Global Ranking of Academic Subjects 2023 [ 168 ] Subject Global National Natural Sciences Mathematics 51–75 1–2 Physics 5 1 Chemistry 24 1 Earth Sciences 34 1 Geography 201–300 1 Ecology 201–300 1–2 Oceanography 48 1 Atmospheric Science 38 1 Engineering Mechanical Engineering 151–200 3 Electrical & Electronic Engineering 151–200 1 Automation & Control 47 1 Instruments Science & Technology 101–150 1 Biomedical Engineering 101–150 1–2 Computer Science & Engineering 101–150 1 Civil Engineering 76–100 1 Chemical Engineering 151–200 1 Materials Science & Engineering 76–100 1 Nanoscience & Nanotechnology 101–150 1 Energy Science & Engineering 101–150 1 Environmental Science & Engineering 151–200 1 Water Resources 76–100 1 Biotechnology 151–200 1–2 Transportation Science & Technology 151–200 1–2 Remote Sensing 51–75 1 Metallurgical Engineering 51–75 3–4 Life Sciences Biological Sciences 76–100 4 Human Biological Sciences 151–200 3 Agricultural Sciences 401–500 2–3 Veterinary Sciences 201–300 1–6 Medical Sciences Clinical Medicine 201–300 1 Public Health 201–300 1 Nursing 201–300 1 Medical Technology 301–400 1–6 Pharmacy & Pharmaceutical Sciences 101–150 1 Social Sciences Economics 201–300 1 Statistics 101–150 1 Political Sciences 201–300 1–2 Communication 201–300 1 Psychology 201–300 1 Sites [ edit ] Apart from the three main campuses, the University of Tokyo operates a large number of other campuses and facilities globally. The university's land holdings in Japan amount to 326 square kilometres.

[ 14 ] As of 31 March 2023, the university's real estate holdings are valued at 1.14 trillion yen.

[ 169 ] Hongo campus [ edit ] Main article: Hongō campus The Hongo campus has been the university's centre since 1884, when the university's administration office relocated to the site. The campus faces Shinobazu Pond in Ueno Park to the east and has in its vicinity the electric district Akihabara , the city's bookshop hub, Jimbōchō , and the city's largest indoor stadium, Tokyo Dome . The campus is served by three Tokyo Metro stations: Hongo-sanchome , Todai-mae , and Nezu .

[ 170 ] It occupies the former estate of the Maeda family, Edo period feudal lords of Kaga Province .

[ 171 ] One of the university's best known landmarks, Akamon (the Red Gate), is a relic of this era. The symbol of the university is the ginkgo leaf, from the trees found throughout the area. The Hongo campus also hosts UTokyo's annual May Festival.

[ 172 ] General Library Faculty of Medicine Building 2 Building one, Shared by the Faculties of Law and Letters University Hospital Engineering Building 3 Chemistry East Building Komaba Campus [ edit ] Main article: Komaba Campus, University of Tokyo The Komaba Campus, serving as the educational hub for the first two years of undergraduate studies, provides general education to around 6,000 first and second year students. The campus, also home to the Graduate Schools of Arts, Sciences, and Mathematical Sciences, has advanced research facilities. It also provides specialised education for about 450 senior division undergraduate students in the College of Arts and Sciences and 1,400 graduate students across various disciplines. It is served by Komaba-Todaimae Station on the Keio Inokashira line , which is directly connected to the main gate of the campus.

[ 170 ] Komaba Campus Building 1 Auditorium 900 Main Refectory The Institute of Industrial Science Research Centre for Advanced Science and Technology Campus Plaza Kashiwa Campus [ edit ] Main article: Kashiwa Campus, University of Tokyo The Kashiwa Campus specialises in postgraduate education and research. It houses the Graduate School of Frontier Sciences along with advanced research institutes such as the Institute for Cosmic Ray Research, the Institute for Solid State Physics, the Kavli Institute for the Physics and Mathematics of the Universe , and the Atmosphere and Ocean Research Institute, equipped with extensive facilities and services.

The Kashiwa Campus is built on 100 acres of land.

The institute for Cosmic Ray Research (ICRR), Kasiwa A test track for the new generation of railway technology runs across the campus.

A former Tokyo Metro series 01 coach is used as a railway technology testbed.

The Kashiwa II Campus (20 acres) houses accommodation and athletic facilities for the students and faculty of the Kashiwa Campus.

Shirokanedai Campus [ edit ] The main building of the Shirokanedai Campus The relatively small Shirokanedai Campus [ 173 ] hosts the Institute of Medical Science , which is entirely dedicated to postgraduate studies. The institute was originally established by Shibasaburo Kitasato and moved to the current site in Shirokanedai, Minato in 1906. The campus is focused on genome research, including among its research groups the Human Genome Center, which has at its disposal the largest supercomputer in the field.

[ 174 ] The main building of the building was designed by Yoshikazu Uchida in a style matching that of the adjacent Institute of Public Health , which is now opened to the public as Minato Local History Museum.

[ 175 ] Other sites [ edit ] Koishikawa Botanical Garden , Tokyo Norikura Solar Observatory Kemigawa Athletic Ground, Chiba KAGRA gravitational wave telescope , Gifu Yamanaka Seminar House, Yamanashi Atacama Observatory , Mount Chajnator, Chile Kemigawa Seminar House, Chiba Atmosphere and Ocean Research Institute, Iwate, after the Tsunami of 11 March 2011 Nikko Botanical Garden , Tochigi Tokoro Archaeological Centre, Tokoro , Hokkaido Notable alumni [ edit ] Main article: List of University of Tokyo people Throughout its history as a modern university since 1877, a considerable number of UTokyo alumni have become notable in various fields, both academic and otherwise. As of 2024, UTokyo's alumni and faculty include 17 prime ministers of Japan out of 64, 20 Nobel Prize laureates , five astronauts , and a Fields Medalist .

[ 16 ] Additionally, UTokyo alumni have founded some of Japan's largest companies , such as Toyota [ 17 ] and Hitachi .

[ 18 ] UTokyo alumni also hold chief executive positions in approximately a quarter of the Nikkei 225 companies (47 in 2014), [ 19 ] a fifth of the total seats in the National Diet (139 out of 713 in 2023), [ 20 ] [ 21 ] more than half of the prefectural governorships (27 out of 47 in 2023), [ 22 ] and about two thirds of the justiceships at the Supreme Court of Japan (11 out of 15 in 2024).

[ 23 ] Of the 20 Nobel Prize winners affiliated with UTokyo in some way, a total of twelve have earned degrees from the institution, with prizes won in five of the six categories, except for economics. This is the largest number among all universities in Asia.

[ 176 ] However, when including other affiliates such as non-alumnus faculty members, the total number is on a par with Kyoto University .

[ 177 ] The remainder consists of: Hideki Yukawa (Physics, 1949), who served as a professor from 1942 for a few years; [ 48 ] [ 178 ] Charles H. Townes (Physics, 1964), who was a visiting scholar for two years in the 1950s; [ 179 ] Wolfgang Paul (Physics, 1989), who was a visiting lecturer in 1978; [ 180 ] Anthony James Leggett (Physics, 2003), who was a visiting professor for two years beginning in 1972; [ 181 ] Gérard Mourou , who was a visiting professor in 1994; [ 182 ] Tasuku Honjo (Physiology or Medicine, 2018), who was an assistant professor for six years beginning in 1974; [ 183 ] Harry Markowitz (Economics, 1990) [ 184 ] and Leonid Hurwicz (Economics, 2007), [ 185 ] both of whom served as visiting professors.

Law and politics [ edit ] Japanese Prime Ministers who attended the University of Tokyo Earl Takaaki Kato Osachi Hamaguchi Shigeru Yoshida Ichirō Hatoyama Eisaku Sato Yasuhiro Nakasone Kiichi Miyazawa Yukio Hatoyama The University of Tokyo has educated eighteen prime ministers of Japan : Takashi Hara (dropped out), Earl Takaaki Katō (Law, 1881), Baron Reijirō Wakatsuki (Law, 1892), Osachi Hamaguchi (Law, 1895), Kōki Hirota (Law, 1905), Duke Fumimaro Konoe (Letters, dropped out), Baron Hiranuma Kiichirō (Law, 1888), Baron Kijūrō Shidehara (Law, 1895), Shigeru Yoshida (Law, 1906), Tetsu Katayama (Law, 1912), Hitoshi Ashida (Law, 1912), Ichirō Hatoyama (Law, 1907), Nobusuke Kishi (Law, 1920), Eisaku Satō (Law, 1924), Takeo Fukuda (Law, 1929), Yasuhiro Nakasone (Law, 1941), Kiichi Miyazawa (Law, 1941), Yukio Hatoyama (Engineering, 1969). Eisaku Satō received the Nobel Peace Prize in 1974, for his comminment to halting the spread of nuclear arms.

[ 186 ] UTokyo has produced numerous other influential politicians since its establishment. As of December 2023, UTokyo alumni hold 139 seats in the National Diet (the national legislature of Japan), accounting for about a fifth of the total seats.

[ 21 ] [ 20 ] Six members of the cabinet are UTokyo alumni, including the Chief Cabinet Secretary : Yoshimasa Hayashi ; Internal Affairs : Takeaki Matsumoto ; Justice : Ryuji Koizumi ; Foreign Affairs : Yoko Kamikawa ; Education, Culture, Sports, Science and Technology : Masahito Moriyama ; and Economy, Trade and Industry : Ken Saito .

[ 187 ] [ 188 ] As of April 2023, 27 out of the 47 incumbent governors of Japanese prefectures have received their undergraduate education at UTokyo.

[ 22 ] UTokyo has produced a large number of distinguished jurists , judges and lawyers. As of February 2024, eleven out of the fifteen incumbent justices of the Supreme Court are UTokyo alumni.

[ 23 ] The university is also the alma mater of all four Japanese judges of the International Court of Justice : Kōtarō Tanaka , Shigeru Oda , Hisashi Owada and Yuji Iwasawa .

Tomoko Akane has served as the president of the International Criminal Court (ICC) since March 2024.

Sciences, engineering and mathematics [ edit ] Scientists and engineers who attended the University of Tokyo Kunihiko Kodaira Masatoshi Koshiba Yoshinori Ohsumi Kenzo Tange Yoichiro Nambu Kiyoshi Ito Teiji Takagi Ei-ichi Negishi Nine Nobel-awarded scientists have earned degrees from UTokyo: six in physics ( Leo Esaki , Masatoshi Koshiba , Shin'ichirō Tomonaga , Yoichiro Nambu , Takaaki Kajita and Syukuro Manabe ), one in chemistry ( Ei-ichi Negishi ) and two in Physiology or Medicine ( Yoshinori Ohsumi and Satoshi Ōmura ). Additionally, Kunihiko Kodaira won a Fields Medal , Masaki Kashiwara won a Abel Prize , both often called the 'Nobel Prize for mathematics'. Four architects educated at the Faculty of Engineering have received the Pritzker Architecture Prize : Kenzo Tange , Arata Isozaki , Toyo Ito and Fumihiko Maki .

Other notable UTokyo-educated scientists, engineers, and mathematicians include Kiyoshi Ito , known for his work in probability theory ; Hantaro Nagaoka , a pioneer in atomic theory ; Yoshio Nishina , who made significant contributions to particle physics ; and Teiji Takagi , known for his work in number theory .

Yoji Totsuka was an influential figure in neutrino physics .

Kikunae Ikeda is credited with discovering umami .

Kitasato Shibasaburō discovered the infectious agent of bubonic plague , and Kazuhiko Nishijima contributed to the discovery of the Gell-Mann–Nishijima formula .

Hirotugu Akaike developed the Akaike Information Criterion , and Hideo Shima was the chief engineer behind the development of the Shinkansen bullet train .

Yuzuru Hiraga was the chief engineer at the Imperial Japanese Navy , then the third-strongest in the world, and Takamine Jōkichi was the first to isolate adrenaline.

Akira Fujishima discovered the photocatalytic properties of titanium dioxide, and Tosio Kato made notable contributions to functional analysis .

Kenkichi Iwasawa is known for his influence on algebraic number theory .

Shun'ichi Amari invented and formulated the recurrent neural network (RNN) for learning.

Business, economics and finance [ edit ] Industrialists, economists and central bankers who attended the University of Tokyo Kiichiro Toyoda , founder of Toyota Namihei Odaira , founder of Hitachi Baron Koyata Iwasaki , longest-serving head of Mitsubishi Yoshisuke Ayukawa , founder of the Nissan Group Viscount Keizo Shibusawa , governor of BoJ Kazuo Ueda , governor of BoJ since 2023 Hirofumi Uzawa , mathematical economist Nobuhiro Kiyotaki , New Keynesian economist Kiichiro Toyoda , an alumnus of the Faculty of Engineering, founded Toyota Motor , the largest car manufacturer in the world and the largest company in Japan by both market capitalisation and revenue.

[ 17 ] Namihei Odaira , also an alumnus of the Faculty of Engineering, founded Hitachi , one of the largest electronics conglomerates in the world.

[ 189 ] Another UTokyo-educated engineer, Yoshisuke Ayukawa , founded the Nissan Group ( zaibatsu ), [ 190 ] from which some of Japan's largest companies, such as Nissan , Isuzu , NEC , and SOMPO Holdings , spun off.

[ 191 ] Baron Koyata Iwasaki , a member of the founding Iwasaki family of Mitsubishi , was the longest-serving and last head of the group before it was split up by order of the Allied Occupation Forces after the Second World War. Under his leadership, the group's business evolved significantly, and he founded companies such as Mitsubishi Heavy Industries and Nikon .

Hiromasa Ezoe , as an educational psychology student at UTokyo in 1961, established Recruit Holdings , the largest human resources company in Japan, which also runs worldwide businesses including Indeed and Glassdoor . UTokyo alumni have held chief executive positions at numerous influential Japanese companies; as of April 2024, companies under the leadership of a UTokyo alumnus include Sony ( Kenichiro Yoshida ), [ 192 ] MUFG ( Hironori Kamezawa ) [ 193 ] and Mitsubishi Corp ( Katsuya Nakanishi [ ja ]).

[ 194 ] More than half of the governors of the Bank of Japan , the central bank of Japan, have been UTokyo alumni, including the incumbent governor Kazuo Ueda , who previously taught at UTokyo.

[ 195 ] Literature, arts and humanities [ edit ] Literary figures who attended the University of Tokyo Soseki Natsume Ryunosuke Akutagawa Junichiro Tanizaki Osamu Dazai Yukio Mishima Kobo Abe Yasunari Kawabata Kenzaburo Oe Numerous notable literary figures have attended the University of Tokyo, two of whom received the Nobel Prize in Literature: Yasunari Kawabata (Known for The Dancing Girl of Izu , Snow Country and The Old Capital ) and Kenzaburo Oe ( A Personal Matter , The Silent Cry and Death by Water ). Other notable UTokyo-educated writers include: Soseki Natsume ( I Am a Cat , Botchan , Sanshiro and Kokoro ), Ōgai Mori , Ryunosuke Akutagawa , Junichiro Tanizaki , Naoya Shiga , Osamu Dazai , Yukio Mishima , Kobo Abe , Shōyō Tsubouchi , Shinichi Hoshi , Kōyō Ozaki , Jun Takami , Motojiro Kaijii , Shūichi Katō , Kunio Kishida , Hideo Kobayashi , Shigeharu Nakano , Hyakken Uchida , Makoto Oda , Tatsuo Hori , Mari Yonehara and Atsushi Nakajima .

Shiki Masaoka is known as the initiator of modern haiku poetry and one of the most celebrated poets in Japanese history.

[ 196 ] Other notable UTokyo-educated poets include Mokichi Saito , Nobutsuna Sasaki , Makoto Ōoka , Hōsai Ozaki , Saneatsu Mushanokōji and Tatsuji Miyoshi .

Isao Takahata co-founded Studio Ghibli with Hayao Miyazaki and directed animation films including Grave of the Fireflies , Pom Poko , and The Tale of the Princess Kaguya .

[ 197 ] Together with Miyazaki, he created animation films such as Nausicaä of the Valley of the Wind and Laputa: Castle in the Sky .

Yoji Yamada directed the film series Otoko wa Tsurai yo and the Samurai Trilogy ( The Twilight Samurai , The Hidden Blade and Love and Honor ).

Koichi Sugiyama is known for composing the music for Dragon Quest , along with several other famous video games , anime , films, television shows, and pop songs .

Wowaka is considered to be a pioneer in the vocaloid music industry, especially Hatsune Miku .

[ 198 ] Kunio Yanagita made significant contributions to the preservation and studies of Japanese folklore .

[ 199 ] Yanagi Sōetsu initiated the mingei (folk craft) movement, and his contributions made the idea of finding beauty in everyday utilitarian crafts popular.

Nam June Paik , a Korean-American media artist, is considered to be the founder of video art .

[ 200 ] Other notable alumni and affiliates [ edit ] Masako , Empress of Japan Takahito, Prince Mikasa Birendra Bir Bikram Shah Dev , King of Nepal Duke Iemasa Tokugawa , 17th head of the Tokugawa clan Marquess Yoshichika Tokugawa , botanist Chie Nakane , Social Anthropologist Yahiko Mishima (left), first Japanese national to compete in the Olympics Kanō Jigorō , founder of Judo Masako, Empress of Japan , attended UTokyo after finishing her first degree overseas, although she did not earn a degree from the university. The university's other recent connections with the Imperial family include Takahito, Prince Mikasa , younger brother of Emperor Hirohito , who studied archaeology; Fujimaro, Marquess of Tsukuba, a younger son of Kikumaro, Prince Yamashina , who studied Japanese literature.

[ 201 ] Additionally, Crown Prince Fumihito , and his daughter Princess Mako both worked at the University Museum at different times.

King Birendra of Nepal also attended UTokyo but did not earn a degree.

[ 202 ] UTokyo was a preferred educational institution for members of the Japanese aristocracy before any form of peerage, with the exception of the Imperial family, was prohibited with the 1947 constitution . Duke Iemasa Tokugawa , 17th head of the House of Tokugawa , studied law at the university and led a career as a diplomat. Other members of the clan who attended the university include Marquess Yoshichika Tokugawa , who became active as a botanist and patron of arts and sciences later in his life, and Earl Muneyoshi Tokugawa , who was the primary promoter of forestation movements in Japan. Earl Yoriyasu Arima studied agriculture and later served as the Minister of Agriculture. The Arima Kinen , the world's largest betting horse race, was named in his honour. Marquess Yoshi Hijikata , with his strong communist sympathies, fled to Soviet Russia and was deprived of his title on account of this. Another communist sympathiser among UTokyo's alumni, Hotsumi Ozaki , played a central role in Soviet espionage with Richard Sorge and was executed for high treason in 1944.

Chie Nakane , a social anthropologist, was one of the first nineteen female students matriculated at UTokyo in 1947, and she later became the first female professor in the university's history.

[ 203 ] Hidesaburo Ueno , an agricultural scientist who studied and worked at the Faculty of Agriculture, is best known as the owner of the devoted dog Hachiko , who continued to wait for him for more than 9 years. Although the university is not particularly noted for athletics today, beginning with Yahiko Mishima , the first-ever Japanese Olympian who competed in the 1912 Summer Olympics , 33 UTokyo students and alumni have competed in the Olympics.

[ 204 ] Kusuo Kitamura , later a senior bureaucrat at the Ministry of Labour, won a gold medal in the Men's 1500 metre freestyle swimming in the 1932 Summer Olympics .

Judo , now an Olympic sport, was created by Jigoro Kano in 1882, the year he graduated from UTokyo. He was also the central figure in Japan's successful bid to host the 1940 Summer Olympic Games , which had to be cancelled due to the Second World War .

[ 205 ] See also [ edit ] Tokyo portal Earthquake engineering Imperial College of Engineering International Journal of Asian Studies – published in association with the Institute for Advanced Studies on Asia, University of Tokyo Kikuchi Dairoku Koishikawa Botanical Gardens Nikko Botanical Garden University of Tokyo Library University Museum, University of Tokyo References [ edit ] ^ "令和3年度 予算" (PDF) .

東京大学 . March 11, 2021 . Retrieved December 9, 2023 .

(in Japanese) ^ "教職員数（令和4年5月1日現在） - 常勤教員（教授～助手の計）" .

東京大学 . May 1, 2022.

Archived from the original on October 6, 2021 . Retrieved October 6, 2021 .

(in Japanese) ^ Details on the number of students "学生数の詳細について - 在籍者" .

u-tokyo.ac.jp .

Archived from the original on June 5, 2021 . Retrieved August 19, 2022 .

(in Japanese) ^ The number of regular students, research students and auditors 令和4年5月1日現在 学部学生・研究生・聴講生数調 - 在籍者 Archived 2022-09-03 at the Wayback Machine (in Japanese) ^ The number of graduate students, research students and international research students 令和4年5月1日現在 大学院学生・研究生・外国人研究生数調 - 在籍者 Archived 2022-07-21 at the Wayback Machine (in Japanese) ^ UTokyo Visual Identity Guidelines ^ futi (June 20, 2014).

"Our New Name, Friends of UTokyo, Inc. (FUTI) is Now Official" .

Friends of UTokyo, Inc . Retrieved April 9, 2024 .

^ a b "沿革略図" .

東京大学 (in Japanese) . Retrieved March 6, 2024 .

^ a b "The University of Tokyo" .

The University of Tokyo, About UTokyo, Chronology . Retrieved November 6, 2023 .

^ a b "The University of Tokyo" .

The University of Tokyo . Retrieved November 3, 2023 .

^ "The University of Tokyo" .

The University of Tokyo . Retrieved November 6, 2023 .

^ "海外拠点リスト" .

東京大学 (in Japanese) . Retrieved November 3, 2023 .

^ "全国施設分布図" .

東京大学 (in Japanese) . Retrieved November 3, 2023 .

^ a b "施設等所在地" .

東京大学 (in Japanese) . Retrieved November 10, 2023 .

^ "今年は「国際森林年」 主要32社の社有林 所有・利用状況" .

www.dai3.co.jp . Retrieved March 23, 2024 .

note: Although not mentioned in this list, which ranks only governmental bodies and companies, UTokyo would be ranked 6th in the country, just after Sumitomo Forestry .

^ a b "The University of Tokyo" .

The University of Tokyo .

Archived from the original on October 26, 2011 . Retrieved July 12, 2019 .

^ a b c "» Kiichiro Toyoda | Automotive Hall of Fame" .

www.automotivehalloffame.org . Retrieved November 10, 2023 .

^ a b "Legacy of Meister Namihei Odaira : Hitachi Review" .

www.hitachi.com . Retrieved November 10, 2023 .

^ a b サンデー毎日 2014年 3/23号 (in Japanese). 毎日新聞社.

^ a b c "議員一覧（50音順）：参議院" .

www.sangiin.go.jp . Archived from the original on August 4, 2023 . Retrieved November 10, 2023 .

^ a b c "議員情報" .

www.shugiin.go.jp . Retrieved November 10, 2023 .

^ a b c "都道府県のトップは実は｢よそもの｣が多い...知事47人中27人が｢東大出身のエリート｣である本当の理由 全平均在任期間は安倍元首相の8年8カ月より長い" .

PRESIDENT Online（プレジデントオンライン） (in Japanese). April 4, 2023 . Retrieved February 17, 2024 .

^ a b c "Justices of the supreme court | 裁判所 - Courts in Japan" .

www.courts.go.jp . Retrieved February 17, 2024 .

^ "The University of Tokyo" .

The University of Tokyo . Retrieved April 19, 2024 .

^ "Calendar History 2" .

www.ndl.go.jp . Retrieved April 19, 2024 .

^ "The University of Tokyo" .

The University of Tokyo . Retrieved April 19, 2024 .

^ "二 東京大学の創設：文部科学省" .

www.mext.go.jp . Retrieved April 19, 2024 .

^ "四 海外留学生と雇外国人教師：文部科学省" .

www.mext.go.jp . Retrieved December 1, 2023 .

^ Terasaki, Masao (1992).

プロムナード東京大学史, Short History of the University of Tokyo (in Japanese). Tōkyō: Tōkyō Daigaku Shuppankai. p. 161.

ISBN 4-13-003302-6 .

^ "吉野作造｜大正デモクラシー｜民主主義｜選挙普通 (Sakuzo Yoshino, Taisho Democracy, Minpon shugi, Universal suffrage)" .

home (in Japanese) . Retrieved November 9, 2024 .

^ 日本放送協会.

"文字と画像で見る | 歴史総合" .

高校講座 (in Japanese) . Retrieved November 10, 2024 .

^ "3-13 男子普通選挙法の成立と治安維持法 | 史料にみる日本の近代" .

www.ndl.go.jp (in Japanese) . Retrieved November 10, 2024 .

^ 中筋, 直哉 (1998).

"磯村都市社会学の揺籃" .

日本都市社会学会年報 .

1998 (16): 29– 47.

doi : 10.5637/jpasurban1983.1998.29 .

^ Smith, Henry (1972).

Japan's First Student Radicals .

Harvard University Press .

ISBN 9780674471856 .

^ a b Fukuda, Kazuya (October 2015).

悪と徳と 岸信介と未完の日本 (in Japanese). 扶桑社.

ISBN 9784594073152 .

^ 大下英治 (October 15, 2015).

Seiwakai hiroku 清和会秘録 (in Japanese). イースト・プレス.

ISBN 978-4-7816-5058-6 .

^ Earthquake disaster and reconstruction, The University of Tokyo 100-year history 東京大学百年史編集委員会, ed. (March 1985).

東大百年史 通史 (pdf) . Vol. II. 東京大学. p. 385.

Archived (PDF) from the original on June 6, 2021 . Retrieved May 29, 2021 .

(in Japanese) ^ Lost Memory – Libraries and Archives Destroyed in the Twentieth Century ( Archived September 5, 2012, at the Wayback Machine ) ^ "Libraries and disasters, libraries and wars" .

活版印刷研究所 (in Japanese). December 15, 2019 . Retrieved June 13, 2024 .

^ "記念特別展示会－世界から贈られた図書を受け継いで－" .

www.lib.u-tokyo.ac.jp . Retrieved November 3, 2023 .

^ "総合図書館今昔物語" .

www.lib.u-tokyo.ac.jp . Retrieved October 13, 2024 .

^ Hiroya, Sato (March 30, 2020).

"東京大学五月祭の歴史 : 東京帝国大学におけるその起源と変遷" .

東京大学大学院教育学研究科紀要 .

59 : 241– 251.

ISSN 1342-1050 .

^ "内田祥三・丹下健三と建築学の戦中・戦後" (in Japanese) . Retrieved November 3, 2023 .

^ Davison, C. (January 1924).

"Prof. Fusakichi Omori" .

Nature .

113 (2830): 133.

Bibcode : 1924Natur.113..133D .

doi : 10.1038/113133a0 .

ISSN 1476-4687 .

^ "History" .

SCHOOL OF SCIENCE THE UNIVERSITY OF TOKYO . Retrieved February 16, 2024 .

^ "Greeting from the Director – Earthquake Research Institute, the University of Tokyo" (in Japanese) . Retrieved February 16, 2024 .

^ 谷本, 宗生 (March 31, 2014).

"「学生とともに考える学徒出陣 70 周年—記憶と継承」—（東京大学附属図書館・東京大学史史料室共催）を終えて、一緒に考えてみたこと—" (PDF) .

東京大学資料室ニュース (52).

^ a b "東京大学創立130周年記念事業" .

www.u-tokyo.ac.jp . Retrieved December 1, 2023 .

^ "東京帝国大学営繕工事記録写真帳" .

umdb.um.u-tokyo.ac.jp . Retrieved February 9, 2024 .

^ Hirasawa, Hideo (2012).

"第二工学部の思い出" .

生産研究 .

64 (3): 399 – via JSTAGE.

^ "沿革・歴代研究科長" .

東京大学工学部 (in Japanese) . Retrieved December 9, 2023 .

^ "東京大学が接収を免れた経緯について（二） 内田 祥三 No. 661（昭和30年10月） | 一般社団法人学士会 北大・東北大・東大・名大・京大・阪大・九大 卒業生のためのアカデミック・コミュニティー・クラブ" .

www.gakushikai.or.jp (in Japanese) . Retrieved April 28, 2024 .

^ a b Imada, Akiko (March 2015).

"President Shigeru Nambara's Initiative during the Founding of the University of Tokyo under the New Educational System: A Focus on Educational Reform" (PDF) .

大学経営政策研究 (5): 85.

^ "第一高等学校ホームページ" .

museum.c.u-tokyo.ac.jp . Retrieved March 23, 2024 .

^ "初めての東大女子入学生は19名" .

東京大学男女共同参画室 (in Japanese) . Retrieved March 23, 2024 .

^ "9章 東大紛争-ビジュアル年表(戦後70年)：朝日新聞デジタル" .

www.asahi.com . Retrieved December 9, 2023 .

^ "東大入試中止、そのとき受験生は——コロナ禍を超える1969年大学入試の混乱" .

AERA dot. (アエラドット) (in Japanese). August 27, 2020 . Retrieved December 9, 2023 .

^ "テレビで生中継された重大事件簿「東大安田講堂事件」／ホームメイト" .

www.homemate-research-tv-station.com . Retrieved April 10, 2024 .

^ 日本放送協会 (April 12, 2023).

"東京大学で入学式 女子学生の割合 過去最高の23％ | NHK" .

NHKニュース . Retrieved November 3, 2023 .

^ "東大でお待ちしております ～誰もが活躍できるキャンパスを目指して、松木則夫 男女共同参画室長より～" .

東京大学男女共同参画室 (in Japanese) . Retrieved February 9, 2024 .

^ "データ集" .

東京大学男女共同参画室 (in Japanese) . Retrieved February 9, 2024 .

^ "QS Ranking 2004 - Results" .

universityrankings.ch . Retrieved January 29, 2025 .

^ "World University Rankings" .

Times Higher Education (THE) . September 25, 2023 . Retrieved November 3, 2023 .

^ "QS World University Rankings 2024" .

Top Universities . Retrieved November 3, 2023 .

^ "駒場をあとに「惜別の辞に代えて」 - 教養学部報 - 教養学部報" .

www.c.u-tokyo.ac.jp . Retrieved November 10, 2023 .

^ "科学技術指標2021・html版 | 科学技術・学術政策研究所 (NISTEP)" . August 8, 2014 . Retrieved November 10, 2023 .

^ Takeuchi, Kenta (2019).

"国立大学法人運営費交付金の行方 — 「評価に基づく配分」をめぐって —" (PDF) .

^ "17年度国立大授業料" (PDF) .

旺文社 教育情報センター . Retrieved November 10, 2023 .

^ "UTEC-The University of Tokyo Edge Capital Partners Co., Ltd" .

UTEC-The University of Tokyo Edge Capital Partners Co., Ltd . Retrieved November 3, 2023 .

^ "柏キャンパス – 柏キャンパス" (in Japanese) . Retrieved November 3, 2023 .

^ 東京大学広報室 (October 25, 2010).

"「特集：■平成22年度秋季学位記授与式・卒業式■平成22年度秋季入学式」（PDF）" (PDF) .

『学内広報』第1404号 . Retrieved November 3, 2023 .

^ 日本放送協会 (November 27, 2022).

"東京大学 女性の教授と准教授 約300人採用へ" .

NHKニュース . Retrieved November 3, 2023 .

^ a b "The University of Tokyo" .

The University of Tokyo . Retrieved December 9, 2023 .

^ "大学･学部別｢難易度ランキング｣トップ30" .

東洋経済オンライン (in Japanese). March 24, 2014 . Retrieved March 23, 2024 .

^ "入学者選抜方法等の概要（学部）" .

東京大学 (in Japanese) . Retrieved November 3, 2023 .

^ "高等学校段階までの学習で身につけてほしいこと" .

東京大学 (in Japanese) . Retrieved March 29, 2024 .

^ "一般選抜" .

東京大学 (in Japanese) . Retrieved November 3, 2023 .

^ "入学者数・志願者数" .

東京大学 (in Japanese) . Retrieved December 29, 2023 .

^ "一般選抜" .

Undergraduate admissions (domestic) (in Japanese) . Retrieved June 4, 2024 .

^ "国立大学の入試 | 国立大学協会" .

www.janu.jp (in Japanese) . Retrieved December 29, 2023 .

^ "東大の入学式は、なぜ12日開催なのか - 東大新聞オンライン" .

www.todaishimbun.org (in Japanese). April 10, 2016 . Retrieved December 29, 2023 .

^ "The University of Tokyo" .

The University of Tokyo . Retrieved November 10, 2023 .

^ "クラス分け | キミの東大 高校生・受験生が東京大学をもっと知るためのサイト" .

キミの東大 (in Japanese). October 12, 2021 . Retrieved November 10, 2023 .

^ "進学選択 | キミの東大 高校生・受験生が東京大学をもっと知るためのサイト" .

キミの東大 (in Japanese). November 9, 2018 . Retrieved November 10, 2023 .

^ "[入門駒場ライフ] 科類・進学選択について｜受験生・新入生応援サイト2023｜東京大学消費生活協同組合" .

text.univ.coop . Retrieved November 3, 2023 .

^ "Housing Office | Housing Information | Accommodations Offered by UTokyo" .

www.u-tokyo.ac.jp . Retrieved December 29, 2023 .

^ "大学案内・選抜要項・募集要項" .

東京大学 (in Japanese) . Retrieved December 29, 2023 .

^ "団体紹介 - 東大新聞オンライン" .

www.todaishimbun.org (in Japanese). November 19, 2020 . Retrieved December 29, 2023 .

^ "リクルートが生まれた場所、東京大学新聞 リクルート創業者 江副浩正氏の「唯一の上司」 - 東大新聞オンライン" .

www.todaishimbun.org (in Japanese). November 6, 2014 . Retrieved March 24, 2024 .

^ "沿革 – 時代錯誤社" (in Japanese) . Retrieved December 29, 2023 .

^ "About - biscUiT" (in Japanese). October 1, 2017 . Retrieved December 29, 2023 .

^ "Home" .

The Komaba Times . Retrieved December 29, 2023 .

^ "En page" .

UT-BASE . Retrieved December 29, 2023 .

^ "The University of Tokyo" .

The University of Tokyo . Retrieved November 10, 2023 .

^ "利用できる学内施設" .

東京大学 (in Japanese) . Retrieved November 3, 2023 .

^ "東京大学消費生活協同組合" (in Japanese) . Retrieved November 10, 2023 .

^ https://www.ipaj.org/workshop/2015/pdf/UTokyo_campus_map.pdf .

University of Tokyo (in Japanese). Retrieved March 29, 2024.

^ "学部卒業者の卒業後の状況" .

東京大学 (in Japanese) . Retrieved November 3, 2023 .

^ "東京大学「就職先企業・団体」ランキング2022【全20位・完全版】" .

ダイヤモンド・オンライン (in Japanese). February 3, 2023 . Retrieved December 29, 2023 .

^ a b https://www.u-tokyo.ac.jp/content/400229030.pdf University of Tokyo (in Japanese). Retrieved March 29, 2024.

^ "外国学校卒業学生特別選考第1種：私費留学生・第2種：帰国生徒" .

東京大学 (in Japanese) . Retrieved November 3, 2023 .

^ "The University of Tokyo, PEAK - Programs in English at Komaba | HOME" .

peak.c.u-tokyo.ac.jp . Retrieved November 3, 2023 .

^ "The University of Tokyo" .

The University of Tokyo . Retrieved November 3, 2023 .

^ "The University of Tokyo" .

The University of Tokyo . Retrieved November 4, 2023 .

^ "Partner Universities | The University of Tokyo" .

www.globalkomaba.c.u-tokyo.ac.jp . Retrieved November 4, 2023 .

^ "OICE: Partner Universities 「協定校一覧」" .

www.oice.t.u-tokyo.ac.jp . Retrieved November 4, 2023 .

^ "Regarding media coverage of the College of Design (tentative name) concept" .

The University of Tokyo . Retrieved March 29, 2024 .

^ "University of Tokyo to launch 5-year arts and sciences program" .

Nikkei Asia . Retrieved March 29, 2024 .

^ "The University of Tokyo" .

The University of Tokyo . Retrieved March 29, 2024 .

^ "組織構成" .

東京大学 (in Japanese) . Retrieved November 3, 2023 .

^ "The University of Tokyo" .

The University of Tokyo .

Archived from the original on November 16, 2018 . Retrieved November 15, 2018 .

^ "The University of Tokyo" .

The University of Tokyo .

Archived from the original on November 16, 2018 . Retrieved November 15, 2018 .

^ "Prof. Teruo Fujii |" .

www.u-tokyo.ac.jp . Retrieved December 16, 2023 .

^ "特集 大学院を重点とする大学" (PDF) .

東京大学広報誌 淡青 (2): 9. 2000.

^ "東京大学が70年ぶり新学部 文理融合、半数が留学生　" .

日本経済新聞 (Nikkei) (in Japanese). April 4, 2025 . Retrieved April 9, 2025 .

^ "The University of Tokyo" .

The University of Tokyo . Retrieved November 10, 2023 .

^ "附置研究所" .

東京大学 (in Japanese) . Retrieved November 10, 2023 .

^ "大学案内・選抜要項・募集要項" .

東京大学 (in Japanese) . Retrieved November 10, 2023 .

^ "The University of Tokyo" .

The University of Tokyo . Retrieved November 10, 2023 .

^ "MA Yun (Jack MA) - Tokyo College" .

www.tc.u-tokyo.ac.jp . May 2023 . Retrieved November 10, 2023 .

^ Pollard, Jim (May 1, 2023).

"Jack Ma to be a Visiting Professor at Tokyo University" .

Asia Financial . Retrieved November 10, 2023 .

^ "The University of Tokyo" .

The University of Tokyo . Retrieved November 17, 2023 .

^ "統計表" .

東京大学附属図書館 (in Japanese) . Retrieved November 17, 2023 .

^ "統計｜国立国会図書館—National Diet Library" .

www.ndl.go.jp . Retrieved November 17, 2023 .

^ "地下46mに300万冊納める東大の新図書館" .

日本経済新聞 (in Japanese). November 7, 2017 . Retrieved November 17, 2023 .

^ "The University of Tokyo" .

The University of Tokyo . Retrieved March 31, 2024 .

^ "World's Best Hospitals 2023 - Top 250" .

Newsweek . March 1, 2023 . Retrieved March 31, 2024 .

^ "天皇陛下、18日に冠動脈バイパス手術 狭心症と診断" .

日本経済新聞 (in Japanese). February 12, 2012 . Retrieved March 31, 2024 .

^ "天皇陛下のご入院・ご手術・ご退院について - 宮内庁" .

www.kunaicho.go.jp . Retrieved March 31, 2024 .

^ "小石川植物園について ｜ 小石川植物園" (in Japanese) . Retrieved November 17, 2023 .

^ "利用案内 ｜ 小石川植物園" (in Japanese) . Retrieved November 17, 2023 .

^ "Nikko Botanical Garden" .

www.bg.s.u-tokyo.ac.jp . Retrieved November 17, 2023 .

^ "財務情報" .

東京大学 (in Japanese) . Retrieved June 13, 2024 .

^ "About finances" .

東京大学 (in Japanese) . Retrieved June 13, 2024 .

^ "東京大学、高リスク投資6割に 自主財源拡大へ基金積極運用" .

日本経済新聞 (in Japanese). March 31, 2023 . Retrieved June 13, 2024 .

^ "en | 東京大学基金" .

utf.u-tokyo.ac.jp . Retrieved June 15, 2024 .

^ "Tuition fees from next year" .

東京大学 (in Japanese) . Retrieved June 13, 2024 .

^ "UTokyo President 'Considers Tuition Fee Rises' " .

The Nikkei (in Japanese). June 10, 2024 . Retrieved June 13, 2024 .

^ Bryson, Bill (2003).

A Short History of Nearly Everything . Broadway Books.

ISBN 0-7679-0817-1 .

^ Rutherford, Ernest (May 1911).

"The Scattering of α and β Particles by Matter and the Structure of the Atom" (PDF) .

Philosophical Magazine .

21 (6).

^ "『人工衛星計画試案』 | 日本の宇宙開発の歴史 | ISAS" .

www.isas.jaxa.jp . Retrieved February 17, 2024 .

^ "TANSEI | Spacecraft" .

ISAS . Retrieved February 17, 2024 .

^ "History ｜ ISAS" .

History . Retrieved February 17, 2024 .

^ Takeshige, K.; Baba, M.; Tsuboi, S.; Noda, T.; Ohsumi, Y. (October 15, 1992).

"Autophagy in yeast demonstrated with proteinase-deficient mutants and conditions for its induction" .

The Journal of Cell Biology .

119 (2): 301– 311.

doi : 10.1083/jcb.119.2.301 .

PMC 2289660 .

PMID 1400575 . Retrieved February 17, 2024 .

^ "The Nobel Prize in Physiology or Medicine 2016" .

NobelPrize.org . Retrieved February 17, 2024 .

^ "The Nobel Prize in Physics 2002" .

NobelPrize.org . Retrieved November 10, 2023 .

^ "The Nobel Prize in Physics 2015" .

NobelPrize.org . Retrieved November 10, 2023 .

^ "The Hyper-Kamiokande project is officially approved. | Kamioka Observatory ICRR, The University of Tokyo" .

Kamioka Observatory ICRR, The University of Tokyo (in Japanese) . Retrieved February 28, 2024 .

^ "THE World University Rankings" . Times Higher Education. 2025 . Retrieved October 9, 2024 .

^ "World Reputation Rankings 2025: results announced" . Times Higher Education. 2025 . Retrieved February 26, 2025 .

^ "QS World University Rankings" . QS Quacquarelli Symonds Limited. 2026 . Retrieved June 19, 2025 .

^ "Academic Ranking of World Universities" . Institute of Higher Education, Shanghai Jiao Tong University. 2024 . Retrieved August 15, 2024 .

^ "Institution tables Academic 2024" . Nature. 2024 . Retrieved February 26, 2025 .

^ "Asia University Rankings 2025" . Times Higher Education. 2025 . Retrieved April 23, 2025 .

^ "QS World University Rankings: Asia 2025" . QS Quacquarelli Symonds Limited. 2025 . Retrieved November 6, 2024 .

^ Japanese journalist Kiyoshi Shimano [ ja ] ranks its entrance difficulty as SA (most selective/out of 10 scales) in Japan.

危ない大学・消える大学 2012年版 (in Japanese). YELL books. 2011.

ISBN 978-4-7539-3018-0 .

^ "Japan University Rankings 2017" .

Times Higher Education (THE) . March 23, 2017.

Archived from the original on June 5, 2021 . Retrieved May 29, 2017 .

^ "World University Rankings" .

Times Higher Education (THE) . August 17, 2016.

Archived from the original on January 27, 2018 . Retrieved May 29, 2017 .

^ "World University Rankings" .

Times Higher Education (THE) . October 4, 2024 . Retrieved October 13, 2024 .

^ a b "QS World University Rankings by Subject 2024" .

Top Universities . Retrieved May 27, 2024 .

^ Durrans, Alice (January 18, 2017).

"Where do the world's top CEOs go to university?" . Archived from the original on November 27, 2019.

^ "QS Ranking 2025" .

^ "科研費配分結果｜科学研究費助成事業（科研費）｜日本学術振興会" .

日本学術振興会 (in Japanese) . Retrieved February 28, 2024 .

^ "令和5年度科学研究費助成事業の配分について：文部科学省" .

文部科学省ホームページ (in Japanese) . Retrieved February 28, 2024 .

^ "World's Best Hospitals 2023 - Top 250" .

Newsweek . March 1, 2023 . Retrieved December 1, 2023 .

^ "QS World University Rankings by Subject 2024" .

QS World University Rankings .

^ "World University Rankings by subject" .

Times Higher Education World University Rankings .

^ "ShanghaiRanking's Global Ranking of Academic Subjects 2023" .

Academic Ranking of World Universities .

^ "令和4年度財務情報" .

東京大学 (in Japanese) . Retrieved February 11, 2024 .

^ a b "The University of Tokyo" .

The University of Tokyo . Retrieved February 15, 2024 .

^ "Japan's new university entrance exams underway amid virus pandemic" .

The Japan Times . January 16, 2021.

Archived from the original on January 16, 2021 . Retrieved March 24, 2021 .

^ "トップページ｜東京大学 第86回五月祭" .

第86回五月祭公式ウェブページ . Archived from the original on 5 September 2015 . Retrieved 12 June 2015 .

^ "Shirokanedai Campus, The Institute of Medical Science, The University of Tokyo" .

Ims.u-tokyo.ac.jp .

Archived from the original on September 28, 2018 . Retrieved November 15, 2018 .

^ "Human Genome Center" .

Hgc.jp .

Archived from the original on May 26, 2015 . Retrieved June 12, 2015 .

^ "港区立郷土歴史館" .

港区立郷土歴史館 (in Japanese) . Retrieved December 15, 2024 .

^ "Nobel Laureates" .

Kyoto University . Retrieved April 7, 2024 .

^ 京都大学大学案内 2024 知と自由への誘い ^ "生命情報科学の源流 | WEB連載 | 大人の科学.net" .

otonanokagaku.net . Retrieved October 4, 2024 .

^ "Townes, Charles H." history.aip.org . Retrieved October 4, 2024 .

^ "Wolfgang Paul" .

www.nobelprize.org . Retrieved January 11, 2025 .

^ "Leggett, A. J. (Anthony J.)" .

history.aip.org . Retrieved October 4, 2024 .

^ "CV (Gérard Albert Mourou)" .

^ "本庶佑（京都大学がん免疫総合研究センター長） 私の履歴書（12）東大 京都大学がん免疫総合研究センター長" .

日本経済新聞 (in Japanese). June 13, 2024 . Retrieved October 4, 2024 .

^ "Harry Markowitz: An Appreciation Part II" . July 11, 2023 . Retrieved October 4, 2024 .

^ INFORMS.

"Hurwicz, Leonid" .

INFORMS . Retrieved October 4, 2024 .

^ "The Nobel Peace Prize 1974" .

NobelPrize.org . Retrieved February 17, 2024 .

^ "List of Ministers" .

Prime Minister's Office of Japan . Retrieved February 17, 2024 .

^ "第2次岸田第2次改造内閣 閣僚等名簿" .

首相官邸ホームページ (in Japanese) . Retrieved February 17, 2024 .

^ "Legacy of Meister Namihei Odaira: Hitachi Review" .

www.hitachi.com . Retrieved November 10, 2023 .

^ "鮎川義介｜近代日本人の肖像" .

近代日本人の肖像 (in Japanese) . Retrieved February 17, 2024 .

^ "「オレは絶対に金持ちにならない」日産、日立の始祖・鮎川義介の血と育ち｜人間力・仕事力を高めるWEB chichi｜致知出版社" .

致知出版社 (in Japanese) . Retrieved February 17, 2024 .

^ "ソニー、次期社長に吉田憲一郎氏 新中期経営計画スタート前に ニュースイッチ by 日刊工業新聞社" .

ニュースイッチ by 日刊工業新聞社 (in Japanese) . Retrieved June 8, 2024 .

^ "Hironori Kamezawa, CEO of MUFG" .

公益財団法人国際文化会館 (in Japanese) . Retrieved June 8, 2024 .

^ 日経ビジネス電子版 (October 13, 2022).

" "It's our turn to save this country from this national crisis", said the CEO of Mitsubishi Corp" .

日経ビジネス電子版 (in Japanese) . Retrieved June 8, 2024 .

^ "Governor : UEDA Kazuo : 日本銀行 Bank of Japan" .

Bank of Japan . Retrieved June 8, 2024 .

^ "正岡子規：俳句を革新した俳人 | September 2022 | Highlighting Japan" .

www.gov-online.go.jp . Retrieved July 23, 2024 .

^ Amidi, Amid (May 16, 2018).

"Watch Hayao Miyazaki's Eulogy For Isao Takahata" .

Cartoon Brew . Retrieved February 17, 2024 .

^ Strawhun, Aiden (April 9, 2019).

"Remembering A Vocaloid Legend Behind Some Of The Best Hatsune Miku Songs" .

Kotaku . Retrieved April 10, 2019 .

^ "Encyclopedia of Shinto詳細" .

國學院大學デジタルミュージアム (in Japanese). Archived from the original on June 11, 2022 . Retrieved February 17, 2024 .

^ Judkis, Maura (December 12, 2012).

" "Father of video art" Nam June Paik gets American Art Museum exhibit (Photos)" .

The Washington Post .

Archived from the original on August 9, 2017 . Retrieved September 5, 2017 .

^ "University of Tokyo Student List: 1925-1927 (The National Diet Library Digital Collection)" .

dl.ndl.go.jp . Retrieved July 23, 2024 .

^ "Birendra: Nepal's monarch of change" . June 2, 2001 . Retrieved July 23, 2024 .

^ " "A hierarchical society could be beneficial for women" advises Chie Nakane, UTokyo's first female professor" .

Yahoo!ニュース (in Japanese) . Retrieved July 23, 2024 .

^ "日本選手第一号から1976モントリオール大会まで 淡青色のオリンピアンたち｜オリパラと東大。" .

東京大学 (in Japanese) . Retrieved July 23, 2024 .

^ "オリンピックムーブメントと嘉納治五郎｜オリンピックを知る｜JOC - 日本オリンピック委員会" .

JOC - 日本オリンピック委員会 (in Japanese) . Retrieved July 23, 2024 .

Further reading [ edit ] Kato, Mariko (August 11, 2009).

"Todai still beckons nation's best, brightest but goals diversifying" .

Japan Times . Retrieved March 24, 2024 .

Kersten, Rikki. "The intellectual culture of postwar Japan and the 1968–1969 University of Tokyo Struggles: Repositioning the self in postwar thought." Social Science Japan Journal 12.2 (2009): 227–245.

Marshall, Byron K.

Academic Freedom and the Japanese Imperial University, 1868–1939 (University of California Press, 1992).

Takashi, Tachibana, and Richard H. Minear.

Tokyo University and the War (2017), on world war II; online .

External links [ edit ] Wikimedia Commons has media related to University of Tokyo .

